1	Investment	The Zulu Principle	120	The Zulu Principle: Making Extraordinary Profits from Ordinary Shares is an investment guide written by English accountant and investor Jim Slater, first published by Orion in 1992. Slater named his approach to investment when he observed that after reading a short article on the Zulu people in the Reader's Digest his wife was better informed on the subject than he himself was. He went on to consider that if his wife read all the books she could find on the subject of Zulus, coupled with a visit to South Africa to meet them for herself, then in a relatively short period of time she could become one of the leading authorities on that "clearly defined and narrow area of knowledge".
2	Investment	Wrap account	63	A wrap account is a means of consolidating and managing an investor's investment portfolio and financial plans. Wrap fee services are offered by many financial institutions. Often wrap services are offered for a fee or a series of charges. These charges cover all administrative and management costs. This type of service is also sometimes known as an investment platform or financial platform service.
3	Investment	World Gold Council	37	The World Gold Council is the market development organisation for the gold industry. It works across all parts of the industry, from gold mining to investment, and their aim is to stimulate and sustain demand for gold.
4	Investment	With-profits policy	55	A with-profits policy (Commonwealth) or participating policy (U.S.) is an insurance contract that participates in the profits of a life insurance company. The company is often a mutual life insurance company, or had been one when it began its with-profits product line. Similar arrangements are found in other countries such as those in continental Europe.
5	Investment	Widow-and-orphan stock	86	In stock markets, a widow-and-orphan stock is one that reliably provides a regular dividend while also yielding a slow but steady rise in market value over the long term. As such, this type of stock has traditionally been an attractive investment for retirees—in some cases actually widows—as well as for professional investors managing trust funds for orphans. The term serves to denote mostly passive small investors in contrast to wealthy individuals and professional investors who tend to play a more active role and seek greater returns.
6	Investment	Wall crossing	97	Wall crossing is a technique used by publicly traded companies to raise capital, typically from institutional investors in two stages. In a wall crossing, a publicly listed company tries to raise capital through large stock sales by having institutional investors pre-arranged to buy substantial blocks of newly issued stock ahead of a public announcement of the offering as part of a confidential offering. In order to participate in what is essentially a private placement, investors typically sign a non-disclosure agreement that allows them to "cross the wall", thus becoming insiders and gaining access to material non-public information.
7	Investment	Vulture investor	96	Unlike an angel investor, a vulture investor buys up assets and financial instruments below cost from distressed entities. This could take the form of securities, debt, held assets, real estate, etc. A vulture investor may purchase the controlling shares of a company in order to liquidate, thereby realizing a higher yield return on investment than the original purchase price. Real estate could be purchased from a borrower who is no longer able to make payments on their loan and needs to sell the property in order to improve their balance sheet or retain their credit rating.
8	Investment	Vulture capitalist	8	Vulture capitalists are investors that acquire distressed assets.
9	Investment	VISTA (economics)	11	VISTA is an acronym for Vietnam, Indonesia, South Africa, Turkey, Argentina.
10	Investment	Value premium	64	In investing, value premium refers to the greater risk-adjusted return of value stocks over growth stocks. Eugene Fama and K. G. French first identified the premium in 1992, using a measure they called HML to measure equity returns based on valuation. Other experts, such as John C. Bogle, have argued that no value premium exists, claiming that Fama and French's research is period dependent.
11	Investment	Value investing	53	Value investing is an investment paradigm that involves buying securities that appear underpriced by some form of fundamental analysis. The various forms of value investing derive from the investment philosophy first taught by Benjamin Graham and David Dodd at Columbia Business School in 1928, and subsequently developed in their 1934 text Security Analysis.
12	Investment	Value averaging	165	Value averaging (VA), also known as dollar value averaging (DVA), is a technique for adding to an investment portfolio that is controversially claimed to provide a greater return than other methods such as dollar cost averaging. With the method, investors add to their portfolios in such a way that the portfolio balance reaches a predetermined monthly or quarterly target, regardless of market fluctuations. For example, an investor may want to have a $3600 investment in 36 months. Using VA, the investor would aim to have a total investment value of $100 at the beginning of the first month, $200 at the beginning of the second month, and so on. Having invested $100 at the beginning of the first month, the investment may be worth $101 at the end of that month. In that case, the investor invests a further $99 to reach the second month objective of $200. If at the end of the first month, the investment is worth $205, the investor withdraws $5.
13	Investment	Unified managed account	112	Unified managed accounts are managed investment accounts that have developed out of separate accounts. Where a separate account holds the securities associated with a single investment manager or style managed for a client, a unified managed account typically holds multiple separate accounts, as well as other investment products such as mutual funds and exchange traded funds. Unified managed accounts also typically automate services such as rebalancing, cashflow management, and other services that are typically handled manually by financial advisors or institutions when using a separate account. A unified managed account removes the need to have more than one account and combines all of the assets into one account with a single registration.
14	Investment	Unicorn bubble	55	A unicorn bubble is a theoretical economic bubble that would occur when unicorn startup companies are overvalued by venture capitalists or investors. This can either occur during the private phase of these unicorn companies, or in an initial public offering. A unicorn company being one which is valued at, or above, $1 billion US dollars.
15	Investment	Undervalued stock	50	An undervalued stock is defined as a stock that is selling at a price significantly below what is assumed to be its intrinsic value. For example, if a stock is selling for $50, but it is worth $100 based on predictable future cash flows, then it is an undervalued stock.
16	Investment	Undertakings for Collective Investment in Transferable Securities Directive 2009	53	The Undertakings for Collective Investment in Transferable Securities Directive (UCITS) 2009/65/EC is a consolidated EU Directive, that allows collective investment schemes to operate freely throughout the EU on the basis of a single authorisation from one member state. EU member states are entitled to have additional regulatory requirements for the benefit of investors.
17	Investment	Undercapitalization	65	Under-capitalization refers to any situation where a business cannot acquire the funds they need. An under-capitalized business may be one that cannot afford current operational expenses due to a lack of capital, which can trigger bankruptcy, may be one that is over-exposed to risk, or may be one that is financially sound but does not have the funds required to expand to meet market demand.
18	Investment	Uncompensated risk	29	In investments, uncompensated risk is the level of additional risk for which no additional returns are generated and when taking systematic withdrawals make the probability of failure unacceptably high.
19	Investment	Turnaround stock	15	A turnaround stock is a share with a high P/E ratio but low price-to-book ratio.
20	Investment	Time-weighted return	50	The time-weighted return (TWR) is a method of calculating investment return. To apply the time-weighted return method, combine the returns over sub-periods, by compounding them together, resulting in the overall period return. The rate of return over each different sub-period is weighted according to the duration of the sub-period.
21	Investment	Trillion dollar club (economics)	32	The Trillion dollar club is an unofficial classification of the world's major economies with a gross domestic product of more than US$1 trillion per year. As of 2017, it included 16 countries.
22	Investment	Traditional investments	33	In finance, the notion of traditional investments refers to putting money into well-known assets with the expectation of capital appreciation, dividends, and interest earnings. Traditional investments are to be contrasted with alternative investments.
23	Investment	Trade in services statistics	63	Trade in services statistics are economic statistics which detail international trade in services. They received a great deal of focus at the advent of services negotiations which took place under the Uruguay Round, which became part of the General Agreement on Trade in Services, one of the four principal pillars of the World Trade Organization (WTO) trade treaty, also called the "WTO Agreement".
24	Investment	Trade idea	119	Trade ideas are investment ideas, typically equity related, which are sent by institutional stockbrokers to their institutional clients. They typically propose a trade in a specific stock and are developed by the individual idea author’s own knowledge of their client’s particular area of investment interest, so will take into account: the client’s investment style, portfolio size and the sector and geographic focus. Recipients of trade ideas can be hedge funds, bank’s proprietary trading desks and money managers. Trade ideas are sent to the client with a recommendation to buy or sell, an investment value and often a timeframe and an indication of level of conviction. The most active consumers of Trade Ideas are funds using quantitative or systematic strategies.
25	Investment	Tontine	77	A tontine is an investment plan for raising capital, devised in the 17th century and relatively widespread in the 18th and 19th centuries. It combines features of a group annuity and a lottery. Each subscriber pays an agreed sum into the fund, and thereafter receives an annuity. As members die, their shares devolve to the other participants, and so the value of each annuity increases. On the death of the last member, the scheme is wound up.
26	Investment	Time to value	97	Time to value (TTV) is similar to return on investment (ROI), but instead of realizing the financial success of an investment, it implies achieving the effectiveness of an investment. This is applied mostly to added technology — data center hardware, network infrastructure, system security, etc. whereby the promised improvement becomes measurable. It can even be argued that in cases such as data security, TTV is more important than ROI since the security may only have financial benefits in banking and commercial industries, but has value — the protection of personal and/or corporate data — in every industry.
27	Investment	Thematic investing	27	Thematic investing is a form of investment which aims to identify macro-level trends, and the underlying investments that stand to benefit from the materialisation of those trends.
28	Investment	The Craftory	41	The Craftory is a global investment house based in London, UK. It was founded in early 2018 as an alternative to Venture Capital. The current fund size is $375 million in permanent capital and the firm only invests in ‘Challenger Brands’.
29	Investment	Term (time)	40	A term is a period of duration, time or occurrence, in relation to an event. To differentiate an interval or duration, common phrases are used to distinguish the observance of length are near-term or short-term, medium-term or mid-term and long-term.
30	Investment	Tear sheet	91	In advertising, a tear sheet is a page cut or torn from a publication to prove to the client that the advertisement was published. Media buying agencies are often required by clients to provide tear sheets along with a post analysis of any advertising campaign. With the emergence of online advertising tear sheets often now appear in the form of a PDF file, known as a "virtual tear sheet", or "electronic tear sheet". Tear sheets are also used by writers and photographers as proof that their article or photo was published.
31	Investment	Taxation of precious metals	40	Precious metals are subject to taxation in most countries, because of their high economic value. In most countries capital gains tax applies when precious metals are sold at a profit. Some countries also apply value added tax to precious metals.
32	Investment	Tangible investment	39	A tangible investment is something physical that you can touch. It is an investment in a tangible, hard or real asset or personal property. This contrasts with financial investments such as stocks, bonds, mutual funds and other financial instruments.
33	Investment	Tail risk parity	78	Tail risk parity is an extension of the risk parity concept that takes into account the behavior of the portfolio components during tail risk events. The goal of the tail risk parity approach is to protect investment portfolios at the times of economic crises and reduce the cost of such protection during normal market conditions. In the tail risk parity framework risk is defined as expected tail loss. The tail risk parity concept is similar to drawdown parity
34	Investment	T-model	115	In finance, the T-model is a formula that states the returns earned by holders of a company's stock in terms of accounting variables obtainable from its financial statements. The T-model connects fundamentals with investment return, allowing an analyst to make projections of financial performance and turn those projections into a required return that can be used in investment selection. Mathematically the model is as follows:where  = total return from the stock over a period ; = the growth rate of the company's book value during the period; = the ratio of price / book value at the beginning of the period. = the company's return on equity, i.e. earnings during the period / book value;
35	Investment	Style investing	53	Style investing is an investment approach in which rotation among different "styles" is supposed to be important for successful investing. As opposed to investing in individual securities, style investors can decide to make portfolio allocation decisions by placing their money in broad categories of assets, such as "large-cap", "growth", "international", or "emerging markets".
36	Investment	Stranger-originated life insurance	190	Stranger-originated life insurance ("STOLI") generally means any act, practice, or arrangement, at or prior to policy issuance, to initiate or facilitate the issuance of a life insurance policy for the intended benefit of a person who, at the time of policy origination, does not have an insurable interest in the life of the insured under the laws of the applicable state. This includes the purchase of life insurance with resources or guarantees from or through a person that, at the time of policy initiation, could not lawfully initiate the policy; an arrangement or other agreement to transfer ownership of the policy or the policy benefits to another person; or a trust or similar arrangement that is used directly or indirectly for the purpose of purchasing one or more policies for the intended benefit of another person in a manner that violates the insurable interest laws of the state. The main characteristic of a STOLI transaction is that the insurance is purchased solely as an investment vehicle, rather than for the benefit of the policy owner's beneficiaries. STOLI arrangements are typically promoted to consumers between the age of 65 and 85.
37	Investment	Stockbroker	150	A stockbroker, share holder registered representative, trading representative, or more broadly, an investment broker, investment adviser, financial adviser, wealth manager, or investment professional is a regulated broker, broker-dealer, or registered investment adviser who may provide financial advisory and investment management services and execute transactions such as the purchase or sale of stocks and other investments to financial market participants in return for a commission, markup, or fee, which could be based on a flat rate, percentage of assets, or hourly rate. Examples of professional designations held by individuals in this field, which affects the types of investments they are permitted to sell and the services they provide include chartered financial consultants, certified financial planners or chartered financial analysts, chartered strategic wealth professionals, chartered financial planners, and Master of Business Administration. The Financial Industry Regulatory Authority provides an online tool designed to help understand professional designations in the United States.
38	Investment	Statistical arbitrage	40	In finance, statistical arbitrage is a class of short-term financial trading strategies that employ mean reversion models involving broadly diversified portfolios of securities held for short periods of time. These strategies are supported by substantial mathematical, computational, and trading platforms.
39	Investment	Stabilization clause	12	A stabilization clause is a risk management device used in investment contracts.
40	Investment	Split share corporation	162	A split share corporation is a corporation that exists for a defined period of time to transform the risk and investment return of a basket of shares of conventional dividend-paying corporations into the risk and return of the two or more classes of publicly traded shares in the split share corporation. Most commonly a split share corporation issues equal numbers of shares from a class of preferred shares and a class of capital or class A shares. The proceeds of the share offering are invested in conventional dividend-paying shares according to the regulations of the split share corporation. The preferred shares typically offer relatively high and secure dividend yield at a fixed coupon rate but with no expectation of capital gain by the time that the split share corporation is wound up. The capital shares often pay a dividend like the preferred shares; in addition, the capital shares offer participation in the leveraged capital gains of the underlying basket of conventional shares.
41	Investment	Split capital investment trust	57	A split capital investment trust (split) is a type of investment trust which issues different classes of share to give the investor a choice of shares to match their needs. Most splits have a limited life determined at launch known as the wind-up date. Typically the life of a split capital trust is five to ten years.
42	Investment	Special settlement	46	Special settlements in the securities markets exist for OTC trades. It allows a settlement day to be chosen at the time of trading which is outside of the market norms. This is often used to allow financing of short term positions outside of the traders ability.
43	Investment	Smart beta	30	Smart beta investment portfolios offer the benefits of passive strategies combined with some of the advantages of active ones, placing it at the intersection of efficient-market hypothesis and factor investing.
44	Investment	Skewness risk	56	Skewness risk in financial modeling is the risk that results when observations are not spread symmetrically around an average value, but instead have a skewed distribution. As a result, the mean and the median can be different. Skewness risk can arise in any quantitative model that assumes a symmetric distribution but is applied to skewed data.
45	Investment	Single deposit	41	Single deposit is one-time lump sum investment. The Investment is made at the start of the period; grows over the period and matures at the end of the period. Examples of a single deposit are certificates of deposit or Fixed Deposits.
46	Investment	Simple Dietz method	34	The simple Dietz method is a means of measuring historical investment portfolio performance, compensating for external flows into/out of the portfolio during the period. The formula for the simple Dietz return is as follows:
47	Investment	Simple agreement for future equity (SAFE)	76	A SAFE  is an agreement between an investor and a company that provides rights to the investor for future equity in the company similar to a warrant, except without determining a specific price per share at the time of the initial investment. The SAFE investor receives the futures shares when a priced round of investment or liquidation event occurs. SAFEs are intended to provide a simpler mechanism for startups to seek initial funding than convertible notes.
48	Investment	Shipping investments	38	Shipping investments are a form of alternative investment into an asset related to worldwide shipping. This could be into ships themselves, or a related asset such as containers, with the expectation of capital appreciation, dividends, and/or interest earnings.
49	Investment	Share Incentive Plan	109	The Share Incentive Plan was first introduced in the UK in 2000. SIP's are an HMRC approved, tax efficient all employee plan, which provides companies with the flexibility to tailor the plan to meet their business needs. SIPs are becoming increasingly popular with companies that want to engage their workforce and recruit and retain key employees. From 6 April 2014, HMRC approval will no longer be required for a SIP to obtain tax benefits, instead an employer is required to self-certify that the SIP meets the requirements of the relevant legislation. Accordingly, from 6 April 2014, a SIP should no longer be referred to as an HMRC approved plan.
50	Investment	Self-invested personal pension	40	A self-invested personal pension (SIPP) is the name given to the type of UK government-approved personal pension scheme, which allows individuals to make their own investment decisions from the full range of investments approved by HM Revenue and Customs (HMRC).
51	Investment	Security market line	65	Security market line (SML) is the representation of the capital asset pricing model. It displays the expected rate of return of an individual security as a function of systematic, non-diversifiable risk. The risk of an individual risky security reflects the volatility of the return from security rather than the return of the market portfolio. The risk in these individual risky securities reflects the systematic risk.
52	Investment	Security characteristic line	75	Security characteristic line (SCL) is a regression line, plotting performance of a particular security or portfolio against that of the market portfolio at every point in time. The SCL is plotted on a graph where the Y-axis is the excess return on a security over the risk-free return and the X-axis is the excess return of the market in general. The slope of the SCL is the security's beta, and the intercept is its alpha.
53	Investment	Investment Securities	34	Investment Securities are securities that have been purchased as an investment. This is in contrast to securities that are purchased by a broker-dealer or other financial intermediary for resale or short term speculation.
54	Investment	Search fund	32	A search fund is an investment vehicle through which an entrepreneur raises funds from investors in order to acquire a company in which they wish to take an active, day-to-day leadership role.
55	Investment	Saving for Education, Entrepreneurship, and Downpayment	71	Saving for Education, Entrepreneurship, and Downpayment (SEED)  Policy and Practice Initiative is a long-term savings and investment account policy and practice endeavor that develops, tests and impels matched savings accounts and financial education for children and youth. The SEED accounts are installed at birth with an initial deposit of $1,000, and accumulates over the span of a lifetime. All the money will be invested in children’s savings accounts for future purposes.
56	Investment	Royalty fund	74	A royalty fund is a category of private equity fund that specializes in purchasing consistent revenue streams deriving from the payment of royalties. One growing subset of this category is the healthcare royalty fund, in which a private equity fund manager purchases a royalty stream paid by a pharmaceutical company to a patent holder. The patent holder can be another company, an individual inventor, or some sort of institution, such as a research university.
57	Investment	Rolling (finance)	32	Rolling a contract is an investment concept meaning trading out of a standard contract and then buying the contract with next longest maturity, so as to maintain a position with constant maturity.
58	Investment	Risk–return spectrum	35	The risk–return spectrum is the relationship between the amount of return gained on an investment and the amount of risk undertaken in that investment. The more return sought, the more risk that must be undertaken.
59	Investment	Risk parity	62	Risk parity is an approach to investment portfolio management which focuses on allocation of risk, usually defined as volatility, rather than allocation of capital. The risk parity approach asserts that when asset allocations are adjusted to the same risk level, the risk parity portfolio can achieve a higher Sharpe ratio and can be more resistant to market downturns than the traditional portfolio.
60	Investment	Rights of accumulation	36	The Right of Accumulation is an investment term for mutual fund transactions, that allows an investor to get lower sales charges on multiple transactions, instead of requiring a single transaction to be over a given amount.
61	Investment	Revolving Loan Fund	117	A Revolving Loan Fund (RLF) is a source of money from which loans are made for multiple small business development projects. Revolving loan funds share many characteristics with microcredit, micro-enterprise, and village banking, namely providing loans to persons or groups of people that do not qualify for traditional financial services or are otherwise viewed as being high risk. Borrowers tend to be small producers of goods and services: typically, they are artisans, farmers, and women with no credit history or access to other types of loans from financial institutions. Organizations that offer revolving loan fund lending aim to help new project or business owners become financially independent and eventually to become eligible for loans from commercial banks.
62	Investment	Reverse convertible securities	117	A reverse convertible security or convertible security is a short-term note linked to an underlying stock. The security offers a steady stream of income due to the payment of a high coupon rate. In addition, at maturity the owner will receive either 100% of the par value or, if the stock value falls, a predetermined number of shares of the underlying stock. In the context of structured product, a reverse convertible can be linked to an equity index or a basket of indices. In such case, the capital repayment at maturity is cash settled, either 100% of principal, or less if the underlying index falls conditional on barrier is hit in the case of barrier reverse convertibles.
63	Investment	Return on investment	62	Return on investment (ROI) is a ratio between net profit and cost of investment. A high ROI means the investment's gains compare favorably to its cost. As a performance measure, ROI is used to evaluate the efficiency of an investment or to compare the efficiencies of several different investments. In economic terms, it is one way of relating profits to capital invested.
64	Investment	Retirement spend-down	59	At retirement, individuals stop working and no longer get employment earnings, and enter a phase of their lives, where they rely on the assets they have accumulated, to supply money for their spending needs for the rest of their lives. Retirement spend-down, or withdrawal rate, is the strategy a retiree follows to spend, decumulate or withdraw assets during retirement.
65	Investment	Resampled efficient frontier	261	In investment portfolio construction, an investor or analyst is faced with determining which asset classes, such as domestic fixed income, domestic equity, foreign fixed income, and foreign equity, to invest in and what proportion of the total portfolio should be of each asset class. Harry Markowitz (1959) first described a method for constructing a portfolio with optimal risk/return characteristics. His portfolio optimization method finds the minimum risk portfolio with a given expected return. Because the Markowitz or Mean-Variance Efficient Portfolio is calculated from the sample mean and covariance, which are likely different from the population mean and covariance, the resulting investment portfolio may allocate too much weight to assets with better estimated than true risk/return characteristics. To account for the uncertainty of the sample estimates, a financial analyst can create many alternative efficient frontiers based on resampled versions of the data. Each resampled dataset will result in a different set of Markowitz efficient portfolios. These efficient frontiers of portfolios can then be averaged to create a resampled efficient frontier. The appropriate compromise between the investor's Risk aversion and desired return will then guide the financial analyst to choose a portfolio from the set of resampled efficient frontier portfolios. Since such a portfolio is different from the Markowitz efficient portfolio it will have suboptimal risk/return characteristics with respect to the sample mean and covariance, but optimal characteristics when averaged over the many possible values of the unknown true mean and covariance. Resampled Efficiency is covered by U. S. patent #6,003,018, patent pending worldwide. New Frontier Advisors, LLC, has exclusive worldwide licensing rights.
66	Investment	Relative return	21	Relative return is a measure of the return of an investment portfolio relative to a theoretical passive reference portfolio or benchmark.
67	Investment	Rebalancing investments	85	The rebalancing of investments is the action / trading strategy of bringing a portfolio that has deviated away from one's target asset allocation back into line. This can be implemented by transferring assets, that is, selling investments of an asset class that is overweight and using the money to buy investments in a class that is underweight, but it also applies to adding or removing money from a portfolio, that is, putting new money into an underweight class, or making withdrawals from an overweight class.
68	Investment	Real assets	48	Real Assets is an investment asset class that covers investments in physical assets such as real estate, energy, and infrastructure. Real assets have an inherent physical worth. Real assets differ from financial assets in that financial assets get their value from a contractual right and are typically intangible.
69	Investment	Rate of return on a portfolio	38	The rate of return on a portfolio is the ratio of the net gain or loss which a portfolio generates, relative to the size of the portfolio. It is measured over a period of time, commonly a year.
70	Investment	Rate of return	59	In finance, return is a profit on an investment. It comprises any change in value of the investment, and/or cash flows which the investor receives from the investment, such as interest payments or dividends. It may be measured either in absolute terms or as a percentage of the amount invested. The latter is also called the holding period return.
71	Investment	Range accrual	81	In finance, a range accrual is a type of derivative product very popular among structured note investors. It is estimated that more than US$160 billion of Range Accrual indexed on interest rates only have been sold to investors between 2004 and 2007. It is one of the most popular non-vanilla financial derivatives. In essence the investor in a range accrual is "betting" that the reference "index" - usually interest rates or currency exchange rates - will stay within a predefined range.
72	Investment	Quantitative value investing	58	Quantitative value investing, also known as systematic value investing, is a form of value investing that analyzes fundamental data such as financial statement line items, economic data, and unstructured data in a rigorous and systematic manner. Practitioners often employ quantitative applications such as statistical / empirical finance or mathematical finance, behavioral finance, natural language processing, and machine learning.
73	Investment	Quantitative fund	21	A quantitative fund is an investment fund in which investment decisions are determined by numerical methods rather than by human judgment.
74	Investment	Quality investing	44	Quality investing is an investment strategy based on a set of clearly defined fundamental criteria that seeks to identify companies with outstanding quality characteristics. The quality assessment is made based on soft and hard criteria. Quality investing supports best overall rather than best-in-class approach.
75	Investment	Qirad	64	The qirad was one of the basic financial instruments of the medieval Islamic world. It was an arrangement between one or more investors and an agent where the investors entrusted capital to an agent who then traded with it in hopes of making profit. Both parties then received a previously settled portion of the profit, though the agent was not liable for any losses.
76	Investment	Pyramid trading	53	Pyramid trading, also known as pyramiding, is a trading strategy which consists of adding to an existing trade or position as the price moves in the expected direction. Doing so reduces the risk levels of an investment, with traders using small increments to increase their holdings rather than betting big from the start.
77	Investment	Psychology of previous investment	52	The "psychology of previous investment" was coined by James Howard Kunstler to describe the sunk costs of the modern urban/suburban lifestyle. It is the reluctance to abandon technologies and standards of urban infrastructure into which humans have already made substantial investments, and is seen as a major contributor to modern energy crises.
78	Investment	Property investment calculator	64	Property investment calculator is a term used to define an application that provides fundamental financial analysis underpinning the purchase, ownership, management, rental and/or sale of real estate for profit. Property Investment Calculators are typically driven by mathematical finance models and converted into source code. Key concepts that drive property investment calculators include returns, cash flow, affordability of financing, investment strategy, equity and risk management.
79	Investment	Private sector involvement	49	In the context of sovereign debt crisis, private sector involvement (PSI) refers, broadly speaking, to the contributions or efforts of private sector creditors to the crisis resolution process, and, specifically, means that the private sector shares some of the costs of a financial crisis by incurring itself financial losses.
80	Investment	Private placement	42	Private placement is a funding round of securities which are sold not through a public offering, but rather through a private offering, mostly to a small number of chosen investors. Generally, these investors include friends and family, accredited investors, and institutional investors.
81	Investment	Private equity fund	76	A private equity fund is a collective investment scheme used for making investments in various equity securities according to one of the investment strategies associated with private equity.Private equity funds are typically limited partnerships with a fixed term of 10 years. At inception, institutional investors make an unfunded commitment to the limited partnership, which is then drawn over the term of the fund. From the investors' point of view, funds can be traditional or asymmetric.
82	Investment	Private equity	23	Private equity (PE) typically refers to investment funds, generally organized as limited partnerships, that buy and restructure companies that are not publicly traded.
83	Investment	Principled reasoning	16	Principled reasoning is an alternative to modern portfolio theory based on a different conception of risk.
84	Investment	Principal protected note	25	A Principal protected note (PPN) is an investment contract with a guaranteed rate of return of at least the amount invested, and a possible gain.
85	Investment	Price return	62	The price return is the rate of return on an investment portfolio, where the return measure takes into account only the capital appreciation of the portfolio, while the income generated by the assets in the portfolio, in the form of interest and dividends, is ignored. This contrasts with the total return, which does take into account the income generated in the portfolio.
86	Investment	Power reverse dual-currency note	156	A dual-currency note (DC) pays coupons in the investor's domestic currency with the notional in the issuer's domestic currency. A reverse dual-currency note (RDC) is a note which pays a foreign interest rate in the investor's domestic currency. A power reverse dual-currency note (PRDC) is a structured product where an investor is seeking a better return and a borrower a lower rate by taking advantage of the interest rate differential between two economies. The power component of the name denotes higher initial coupons and the fact that coupons rise as the foreign exchange rate depreciates. The power feature comes with a higher risk for the investor, which characterizes the product as leveraged carry trade. Cash flows may have a digital cap feature where the rate gets locked once it reaches a certain threshold. Other add-on features include barriers such as knockouts and cancel provision for the issuer. PRDCs are part of the wider Structured Notes Market.
87	Investment	Potential future exposure	22	Potential Future Exposure (PFE) is the maximum expected credit exposure over a specified period of time calculated at some level of confidence.
88	Investment	Post-modern portfolio theory	33	Post-modern portfolio theory is an extension of the traditional modern portfolio theory. Both theories propose how rational investors should use diversification to optimize their portfolios, and how a risky asset should be priced.
89	Investment	Portfolio investment	31	Portfolio investments are investments in the form of a group (portfolio) of assets, including transactions in equity, securities, such as common stock, and debt securities, such as banknotes, bonds, and debentures.
90	Investment	Portfolio insurance	73	Portfolio insurance is a hedging strategy developed to limit the losses an investor might face from a declining index of stocks without having to sell the stocks themselves. The technique was pioneered by Hayne Leland and Mark Rubinstein in 1976. Since its inception, the portfolio insurance strategy has been dubiously marketed as a product. However, this is a misnomer as it is not a policy and there is no insurer of last resort.
91	Investment	Portfolio company	39	A portfolio company is a company or entity in which a venture capital firm, a buyout firm, or a holding company invests. All companies currently backed by a private equity firm can be spoken of as the firm’s portfolio.
92	Investment	Portfolio (finance)	20	In finance, a portfolio is a collection of investments held by an investment company, hedge fund, financial institution or individual.
93	Investment	Portable alpha	69	Portable alpha is a strategy in which portfolio managers separate alpha from beta by investing in securities that are not in the market index from which their beta is derived. Alpha is the return achieved over and above the market return (beta) without taking on more risk. In simple terms, portable alpha is a strategy that involves investing in areas that have little to no correlation with the market.
94	Investment	Philatelic investment	42	Philatelic investment is investment in collectible postage stamps for the purpose of realizing a profit. Philatelic investment was popular during the 1970s but then fell out of favour following a speculative bubble and prices of rare stamps took many years to recover.
95	Investment	Personal pension scheme	40	A personal pension scheme (PPS), sometimes called a personal pension plan (PPP), is a UK tax-privileged individual investment vehicle, with the primary purpose of building a capital sum to provide retirement benefits, although it will usually also provide death benefits.
96	Investment	Personal equity plan	79	A personal equity plan (PEP) was a form of tax-privileged investment account in the United Kingdom, introduced by Nigel Lawson in the 1986 budget to encourage equity ownership among the wider population. PEPs were allowed to contain collective investments such as unit trusts. The single company PEP, which was allowed to contain shares of a single company, was introduced in 1992. PEPs were superseded by individual savings accounts in 1999, and remaining accounts were converted to ISAs in 2008.
97	Investment	Periodic deposit	42	Periodic deposit is the investment made in form of equal deposits over a time period regularly. Each deposit recurs after a time interval. Such an investment is made to achieve a pre-planned financial objective and/or when the capital to invest is less.
98	Investment	Pensions crisis	112	The pensions crisis or pensions timebomb is the predicted difficulty in paying for corporate or government employment retirement pensions in various countries, due to a difference between pension obligations and the resources set aside to fund them. The basic difficulty of the pension problem is that institutions must be sustained over far longer than the political planning horizon. Shifting demographics are causing a lower ratio of workers per retiree; contributing factors include retirees living longer, and lower birth rates. An international comparison of pension institution by countries is important to solve the pension crisis problem. There is significant debate regarding the magnitude and importance of the problem, as well as the solutions.
99	Investment	Payback period	111	Payback period in capital budgeting refers to the time required to recoup the funds expended in an investment, or to reach the break-even point. For example, a $1000 investment made at the start of year 1 which returned $500 at the end of year 1 and year 2 respectively would have a two-year payback period. Payback period is usually expressed in years. Starting from investment year by calculating Net Cash Flow for each year: Net Cash Flow Year 1 = Cash Inflow Year 1 - Cash Outflow Year 1. Then Cumulative Cash Flow = Accumulate by year until Cumulative Cash Flow is a positive number: that year is the payback year.
100	Investment	Pay-for-performance (Investment)	77	A pay-for-performance fee structure, in relation to the investment industry, describes a fee that is paid to a financial advisor or investment manager when their performance returns exceed those of their designated benchmark. The performance fee is generally calculated as a percentage of the investment outperformance gained. The rationale for a pay-for-performance fee is that it provides a low-cost base solution for investors and aligns their interests with investment managers who only get compensated for outstanding performance.
101	Investment	Passive investor	95	A passive investor is one who does not participate in the day-to-day decisions of running a company. In partnerships, such investors may be deemed limited partners rather than general partners. According to Steve Penman, "The passive investor assumes the market is efficient and that stocks are correctly priced to reflect the risk involved in buying the stock." A passive investor relies on the controlling stakeholders and the management to conduct the business of the corporation in such a way as both to maximize its value and to share the upside potential with the passive investor.
102	Investment	Partners Capital	44	Partners Capital Investment Group, LLC is an Outsourced Investment Office (OCIO) that serves endowments, foundations, pensions, investment professionals, and high-net-worth families in Europe, North America and Asia. As of September 2019, the 175-person firm had in excess of $30 billion in assets under management.
103	Investment	Participatory note	48	A participatory note, commonly known as a P-note or PN, is an instrument issued by a registered foreign institutional investor (FII) to an overseas investor who wishes to invest in Indian stock markets without registering themselves with the market regulator, the Securities and Exchange Board of India (SEBI).
104	Investment	Panic selling	87	Panic selling is a wide-scale selling of an investment which causes a sharp decline in prices. Specifically, an investor wants to get out of an investment with little regard of the price obtained. The selling activity is problematic because the investor is selling in reaction to emotion and fear, rather than evaluating the fundamentals. Most major stock exchanges use trading curbs to throttle panic selling, providing a cooling period for people to digest information related to the selling and restore some degree of normalcy to the market.
105	Investment	Pairs trade	59	A pairs trade or pair trading is a market neutral trading strategy enabling traders to profit from virtually any market conditions: uptrend, downtrend, or sideways movement. This strategy is categorized as a statistical arbitrage and convergence trading strategy. Pair trading was pioneered by Gerry Bamberger and later led by Nunzio Tartaglia's quantitative group at Morgan Stanley in the 1980s.
106	Investment	Over-investing	44	Over-investing in finance, particularly personal finance, refers to the practice of investing more into an asset than what that asset is worth on the open market. It is cited most frequently in reference to expensive personal consumable investments such as houses, automobiles, and trailers.
107	Investment	Option naming convention	22	In financial markets, an option naming convention is a method of identifying which of many possible options is being quoted or traded.
108	Investment	Operational due diligence (alternative investments)	28	In alternative investments, operational due diligence (ODD), is an investigation into operational factors of alternative investment entities such as a hedge fund, private equity fund, or infrastructure fund.
109	Investment	Operating partner	123	An operating partner is a term used by venture capital (VC) and private equity (PE) firms to describe a role dedicated to working with privately held companies to increase value. The role was created by large capitalization private equity groups and the importance of driving corporate change in building value increased as sellers became more sophisticated and financial engineering less central to private equity investments in the 2000s.. Firms with such Operating Partners argue that value creation potential is better achieved by a fully dedicated and senior partner than solely relying on external consultants. An operating partner has evolved into a full-time position drawing a combination of salary, performance bonus and carried interest similar to an investment partner in the portfolio investment.
110	Investment	Net present value	88	In finance, the net present value (NPV) or net present worth (NPW) applies to a series of cash flows occurring at different times. The present value of a cash flow depends on the interval of time between now and the cash flow. It also depends on the discount rate. NPV accounts for the time value of money. It provides a method for evaluating and comparing capital projects or financial products with cash flows spread over time, as in loans, investments, payouts from insurance contracts plus many other applications.
111	Investment	Net investment	64	In economics, net investment is spending which increases the availability of fixed capital goods or means of production and goods inventories. It is the total spending on newly produced physical capital and on inventories —that is, gross investment—minus replacement investment, which simply replaces depreciated capital goods. It is productive capital formation plus net additions to the stock of housing and the stock of inventories.
112	Investment	Negative gearing	133	Negative gearing is a form of financial leverage whereby an investor borrows money to acquire an income-producing investment and the gross income generated by the investment is less than the cost of owning and managing the investment, including depreciation and interest charged on the loan. The investor may enter into a negatively geared investment expecting tax benefits or the capital gain on the investment after it is sold to exceed the accumulated losses of holding the investment. The investor would take into account the tax treatment of negative gearing, which may generate additional benefits to the investor in the form of tax benefits if the loss on a negatively geared investment is tax-deductible against the investor's other taxable income and if the capital gain on the sale is given a favourable tax treatment.
113	Investment	National saving	26	In economics, a country's national saving is the sum of private and public saving. It equals a nation's income minus consumption and the government’s taxes levied.
114	Investment	Mutual fund trust	0	
115	Investment	Mortgage note	17	In the United States, a mortgage note is a promissory note secured by a specified mortgage loan.
116	Investment	Moody's Manual	54	Moody's Manual is a series of manuals published by the Moody's Corporation. It was first published in 1900 by John Moody, nine years before he founded Moody's. Initially called Moody's Manual of Industrial and Miscellaneous Securities, it was later superseded by Moody's Manual of Railroads and Corporation Securities, then by Moody's Analyses of Investments.
117	Investment	Money management	23	Money management is the process of expense tracking, investing, budgeting, banking and evaluating taxes of one's money which is also called investment management.
118	Investment	Momentum investing	35	Momentum investing is a system of buying stocks or other securities that have had high returns over the past three to twelve months, and selling those that have had poor returns over the same period.
119	Investment	Modified internal rate of return	54	The modified internal rate of return (MIRR) is a financial measure of an investment's attractiveness. It is used in capital budgeting to rank alternative investments of equal size. As the name implies, MIRR is a modification of the internal rate of return (IRR) and as such aims to resolve some problems with the IRR.
120	Investment	Modified Dietz method	22	The modified Dietz method is a measure of the ex post performance of an investment portfolio in the presence of external flows.
121	Investment	Media for equity	107	Media for equity is an alternative investment model which has the main goal of diversifying the revenues stream of a company in a more rational way. Media companies act generally in two different ways: they can either give an unsold advertising space in their publications or a real advertising space equal to a pure cash campaign. The idea is to help the start-up companies increase their metrics in a very short period of time; this way, instead of spending money on online marketing, they can use their financial resources to improve other aspects of their businesses. The companies receive advertising space instead of cash for their stock.
122	Investment	Master–feeder investment structure	31	The master–feeder structure is a technique for structuring investment funds. It allows asset managers to capture the efficiencies of larger pools of assets although fashioning investment funds to separate market niches.
123	Investment	Market trend	71	A market trend is a perceived tendency of financial markets to move in a particular direction over time. These trends are classified as secular for long time frames, primary for medium time frames, and secondary for short time frames. Traders attempt to identify market trends using technical analysis, a framework which characterizes market trends as predictable price tendencies within the market when price reaches support and resistance levels, varying over time.
124	Investment	Market timing	61	Market timing is the strategy of making buying or selling decisions of financial assets by attempting to predict future market price movements. The prediction may be based on an outlook of market or economic conditions resulting from technical or fundamental analysis. This is an investment strategy based on the outlook for an aggregate market, rather than for a particular financial asset.
125	Investment	Market portfolio	37	Market portfolio is a portfolio consisting of a weighted sum of every asset in the market, with weights in the proportions that they exist in the market, with the necessary assumption that these assets are infinitely divisible.
126	Investment	Market neutral	48	An investment strategy or portfolio is considered market-neutral if it seeks to avoid some form of market risk entirely, typically by hedging. To evaluate market-neutrality requires specifying the risk to avoid. For example, convertible arbitrage attempts to fully hedge fluctuations in the price of the underlying common stock.
127	Investment	Market investor	30	There are two basic financial market participant categories, Investor vs. Speculator and Institutional vs. Retail. Action in financial markets by central banks is usually regarded as intervention rather than participation.
128	Investment	Market exposure	43	In finance, market exposure is a measure of the proportion of money invested in the same industry sector. For example, a stock portfolio with a total worth of $500,000, with $100,000 in semiconductor industry stocks, would have a 20% exposure in "chip" stocks.
129	Investment	Market correction	53	A market correction is a rapid change in the nominal price of a commodity, after a barrier to free trade has been removed and the free market establishes a new equilibrium price. It may also refer to several of these single-commodity corrections en masse, as a collective effect over several markets concurrently.
130	Investment	Marginal return	36	Marginal Return is the rate of return for a marginal increase in investment; roughly, this is the additional output resulting from a one-unit increase in the use of a variable input, while other inputs are constant.
131	Investment	Marginal product of capital	56	The marginal product of capital (MPK) is the additional output resulting, ceteris paribus ("all things being equal"), from the use of an additional unit of physical capital. It equals the reciprocal of the incremental capital-output ratio. Mathematically, it is the partial derivative of the production function with respect to capital. If production output , then
132	Investment	Malinvestment	96	In Austrian business cycle theory, malinvestments are badly allocated business investments, due to artificially low cost of credit and an unsustainable increase in money supply. Central banks are often blamed for causing malinvestments, such as the dot-com bubble and the United States housing bubble. Austrian economists such as the Swedish central bank's Nobel Memorial Prize in Economic Sciences laureate F. A. Hayek advocate the idea that malinvestment occurs due to the combination of fractional reserve banking and artificially low interest rates misleading relative price signals which eventually necessitate a corrective contraction—a boom followed by a bust.
133	Investment	Low-volatility investing	74	Low-volatility investing is an investment style that buys securities with low volatility and avoids securities with high volatility. This investment style exploits the low-volatility anomaly. According to financial theory risk and return should be positively related, however in practice this is not true. Low-volatility investors aim to achieve market-like returns, but with lower risk. This investment style is also referred to as minimum volatility, minimum variance, managed volatility, smart beta, defensive and conservative investing.
134	Investment	Lookback option	66	Lookback options, in the terminology of finance, are a type of exotic option with path dependency, among many other kind of options. The payoff depends on the optimal underlying asset's price occurring over the life of the option. The option allows the holder to "look back" over time to determine the payoff. There exist two kinds of lookback options: with floating strike and with fixed strike.
135	Investment	Lock-up period	85	A lock-up period, also known as a lock in, lock out, or locked up period, is a predetermined amount of time following an initial public offering where large shareholders, such as company executives and investors representing considerable ownership, are restricted from selling their shares. Generally, a lock-up period is a condition of exercising an employee stock option. Depending on the company, the IPO lock-up period typically lasts between 90–180 days before these shareholders are allowed the right, but not the obligation, to exercise the option.
136	Investment	Local Investing Opportunity Network	199	A Local Investing Opportunity Network, known as a (LION), is a loosely organized group of people who meet regularly with the goal of investing money in their local community. The group will generally consist of individuals who have money to invest and people who might be in a position where they would be seeking investors. The LION is designed to create opportunities for local businesses, individuals, and local investors to network and develop informal relationships. The U.S. Securities and Exchange Commission has created some very specific laws about how one can ask for money. These laws limit any kind of public offerings of shares/interest in a company, unless there are proper filings and the people investing are considered accredited investors. There is a general exemption that the SEC does not regulate where the investors are friends with the people they are investing in. The LION hosts informal gatherings with the idea that friendships would form and the SEC guidelines would not be violated when any investments occur. The LION also documents who attends the gatherings as a means of creating a paper trail proving that the individuals involved in an investment had the opportunity to form an informal relationship.
137	Investment	List of impact investing firms	0	
138	Investment	Liquidity premium	115	In economics, a liquidity premium is the explanation for a difference between two types of financial securities, that have all the same qualities except liquidity. It is a segment of a three-part theory that works to explain the behavior of yield curves for interest rates. The upwards-curving component of the interest yield can be explained by the liquidity premium. The reason behind this is that short term securities are less risky compared to long term rates due to the difference in maturity dates. Therefore investors expect a premium, or risk premium for investing in the risky security. Liquidity risk premiums are recommended to be used with longer term investments, where those particular investments are illiquid.
139	Investment	Liquid alternative investment	44	Liquid alternatives are alternative investment strategies that are available through alternative investment vehicles such as mutual funds, ETFs, and closed-end funds that provide daily liquidity. Liquid alts are also known as 40 Act funds because they were created by the U.S. Congress in 1940.
140	Investment	Life settlement	83	A life settlement is the "legal" sale of an existing life insurance policy for more than its cash surrender value, but less than its net death benefit ). There are a number of reasons that a policy owner may choose to sell his or her life insurance policy. The policy owner may no longer need or want his or her policy, he or she may wish to purchase a different kind of life insurance policy, or premium payments may no longer be affordable.
141	Investment	Lehman Formula	49	The Lehman Formula, also known as the Lehman Scale, is a formula to define the compensation a bank or finder should receive when arranging for and handling a large underwriting or stock brokerage transfer transaction for a client. The formula usually applies to the entire value of the stock.
142	Investment	Legal Alpha	33	Legal Alpha is the extra performance generated in a specific, diversified investment portfolio by using opportunistic and selective legal activism to obtain compensation for under-performance related to legally relevant unforeseen and uncontrollable circumstances.
143	Investment	Lawcard	18	Aquin Components GmbH LawCards are pre-defined rules covering the investment restrictions of certain jurisdictions for collective investment schemes.
144	Investment	Late trading	36	Late trading is trading that executes after the market closes, while charging the share price of when the market was stil open. This form of trading may be illegal, and is distinct from official after-hours trading.
145	Investment	Land banking	15	Land banking is the practice of aggregating parcels of land for future sale or development.
146	Investment	Laddering	17	Laddering is an investment technique that requires investors to purchase multiple financial products with different maturity dates.
147	Investment	Kurtosis risk	44	In statistics and decision theory, kurtosis risk is the risk that results when a statistical model assumes the normal distribution, but is applied to observations that have a tendency to occasionally be much farther from the average than is expected for a normal distribution.
148	Investment	Irrational exuberance	44	"Irrational exuberance" is the phrase used by the then-Federal Reserve Board chairman, Alan Greenspan, in a speech given at the American Enterprise Institute during the dot-com bubble of the 1990s. The phrase was interpreted as a warning that the stock market might be overvalued.
149	Investment	Investor-state dispute settlement	125	Investor-state dispute settlement (ISDS) or investment court system (ICS) is a system through which investors can sue nation states for alleged discriminatory practices. ISDS is an instrument of public international law and provisions are contained in a number of bilateral investment treaties, in certain international trade treaties, such as the USMCA.A version of this mechanism was also present in the older NAFTA, and the CPTPP and CETA agreements.ISDS is also found in international investment agreements, such as the Energy Charter Treaty. If an investor from one country invests in another country, both of which have agreed to ISDS, and the host state violates the rights granted to the investor under the treaty, then that investor may bring the matter before an arbitral tribunal.
150	Investment	Investor relations	77	Investor relations (IR) is a strategic management responsibility that is capable of integrating finance, communication, marketing and securities law compliance to enable the most effective two-way communication between a company, the financial community, and other constituencies, which ultimately contributes to a company's securities achieving fair valuation. The term describes the department of a company devoted to handling inquiries from shareholders and investors, as well as others who might be interested in a company's stock or financial stability.
151	Investment	Investor profile	65	An investor profile or style defines an individual's preferences in investment decisions, for example:Short term trading or long term holding Risk-averse or risk tolerant / seekerAll classes of assets or just one Value stock, growth stocks, quality stocks, defensive or cyclical stocks...Big cap or small cap stocks,Use or not of derivativesHome turf or international diversificationHands on, or via investment funds
152	Investment	Investor awareness	69	Investor Awareness is a term used in investor relations, by public companies and similar bodies, to describe how well their investors, and the investment market in general, know their business. Its significance is that investors are expected to base their investment decisions on awareness and knowledge, and a lack of these may lead to a low profile amongst its peers in the market, to the detriment of the business.
153	Investment	Investment theory	53	In financial economics, asset pricing refers to a formal treatment and development of two main pricing principles, outlined below, together with the resultant models. There have been many models developed for different situations, but correspondingly, these stem from general equilibrium asset pricing or rational asset pricing, the latter corresponding to risk neutral pricing.
154	Investment	Investment style	18	Investment style refers to different style characteristics of equities, bonds or financial derivatives within a given investment philosophy.
155	Investment	Investment strategy	62	In finance, an investment strategy is a set of rules, behaviors or procedures, designed to guide an investor's selection of an investment portfolio. Individuals have different profit objectives, and their individual skills make different tactics and strategies appropriate. Some choices involve a tradeoff between risk and return. Most investors fall somewhere in between, accepting some risk for the expectation of higher returns.
156	Investment	Investment policy statement	94	An Investment policy statement (IPS) is a document, generally between an investor and the assisting investment manager, recording the agreements the two parties come to with regards to issues relating to how the investor's money is to be managed. In other cases, an IPS may also be created by an investment committee to help establish and record its own policies in order to assist in future decision-making or to help maintain consistency of its policies by future committee members or to clarify expectations for prospective money managers who may be hired by the committee.
157	Investment	Investment Policy Framework for Sustainable Development	139	The Investment Policy Framework for Sustainable Development (IPFSD) is a dynamic document created to help governments formulate sound investment policy, especially international investment agreements (IIAs), that capitalize on foreign direct investment (FDI) for sustainable development. It was prepared by the Division on Investment and Enterprise (DIAE) of the United Nations Conference on Trade and Development (UNCTAD). IPFSD is not a negotiated text or undertaking between States; but rather an initiative by the UNCTAD Secretariat that represents expert guidance while leaving domestic policy makers free to adapt and adopt. IPFSD is the result of numerous consultations with experts and is intended as a platform to provide for further consultation and discussion with all investment stakeholders. The main objective of the IPFSD is to create a balance between the rights and obligations of States and investors while maintaining attractive investment environments.
158	Investment	Investment policy	23	An investment policy is any government regulation or law that encourages or discourages foreign investment in the local economy, e.g. currency exchange limits.
159	Investment	Investment performance	71	Investment performance is the return on an investment portfolio. The investment portfolio can contain a single asset or multiple assets. The investment performance is measured over a specific period of time and in a specific currency. Investors often distinguish different types of return. One is the distinction between the total return and the price return, where the former takes into account income, whereas the latter only takes into account capital appreciation.
160	Investment	Investment goods	20	In economics, investment goods are the goods that enable production, and are the main input into new installed capital.eg:-machine,factory,equipment etc
161	Investment	Investment function	22	The investment function is a summary of the variables that influence the levels of aggregate investments. It can be formalized as follows:
162	Investment	Investment decisions	9	Investment decisions are made by investors and investment managers.
163	Investment	Investment certificate	31	An investment certificate is an investment product offered by an investment company or brokerage firm designed to offer a competitive yield to an investor with the added safety of their principal.
164	Investment	The Investment Answer	54	The Investment Answer, Learn to Manage Your Money & Protect Your Financial Future is a No.1 New York Times bestselling book for individual investors by Daniel C. Goldie, CFA, CFP and Gordon S. Murray. It was first released in paperback in 2010, and later published in hardcover in 2011. It is 96 pages long.
165	Investment	Investment advisory	32	An Investment advisory, in financial/investment organizations, is the unit linking the investment professionals in the central asset management unit to the relationship managers and/or to important clients of the asset management organization.
166	Investment	Inventory investment	116	Inventory investment is a component of gross domestic product (GDP). What is produced in a certain country is naturally also sold eventually, but some of the goods produced in a given year may be sold in a later year rather than in the year they were produced. Conversely, some of the goods sold in a given year might have been produced in an earlier year. The difference between goods produced (production) and goods sold (sales) in a given year is called inventory investment. The concept can be applied to the economy as a whole or to an individual firm, however this concept is generally applied in macro economics Unintended unsold stock of goods increases inventory investment
167	Investment	International investment agreement	121	An International Investment Agreement (IIA) is a type of treaty between countries that addresses issues relevant to cross-border investments, usually for the purpose of protection, promotion and liberalization of such investments. Most IIAs cover foreign direct investment (FDI) and portfolio investment, but some exclude the latter. Countries concluding IIAs commit themselves to adhere to specific standards on the treatment of foreign investments within their territory. IIAs further define procedures for the resolution of disputes should these commitments not be met. The most common types of IIAs are Bilateral Investment Treaties (BITs) and Preferential Trade and Investment Agreements (PTIAs). International Taxation Agreements and Double Taxation Treaties (DTTs) are also considered as IIAs, as taxation commonly has an important impact on foreign investment.
168	Investment	Internal rate of return	42	The internal rate of return (IRR) is a measure of an investment’s rate of return. The term internal refers to the fact that the calculation excludes external factors, such as the risk-free rate, inflation, the cost of capital, or various financial risks.
169	Investment	Intellidex	79	An Intellidex is a securities product created by and proprietary to the American Stock Exchange. Intellidexes are created by analyzing groups of stocks and selecting specific stocks to include in an investment portfolio. These portfolios range from narrow to broad in scope and are usually created based on criteria matching the market as a whole, specific investment styles, or certain industry sectors. Intellidexes and similar products, like exchange-traded funds, are usually traded like normal listed or over-the-counter securities.
170	Investment	Insurance broker	10	An insurance broker sells, solicits, or negotiates insurance for compensation.
171	Investment	Institutional investor	72	An institutional investor is an entity which pools money to purchase securities, real property, and other investment assets or originate loans. Institutional investors include banks, credit unions, insurance companies, pensions, hedge funds, REITs, investment advisors, endowments, and mutual funds. Operating companies which invest excess capital in these types of assets may also be included in the term. Activist institutional investors may also influence corporate governance by exercising voting rights in their investments.
172	Investment	Individual savings account	143	An individual savings account is a class of retail investment arrangement available to residents of the United Kingdom. First introduced in 1999, the accounts have favourable tax status. Payments into the account are made from after-tax income, then the account is exempt from income tax and capital gains tax on the investment returns, and no tax is payable on money withdrawn from the scheme. Cash and a broad range of investments can be held within the arrangement, and there is no restriction on when or how much money can be withdrawn. Since 2017, there are four types of account: cash ISA, stocks & shares ISA, innovative finance ISA (IFISA) and lifetime ISA. Each taxpayer has an annual investment limit which can be split among the four types as desired. Additionally, children under 18 may hold a junior ISA, with a different annual limit.
173	Investment	Individual pension plan	88	An individual pension plan or IPP is a Canadian retirement savings vehicle. An IPP is a one-person maximum defined benefit pension plan which allows the plan member to accrue retirement income on a tax-deferred basis. As such, an IPP must conform to the Canadian Income Tax Act (ITA) and regulations (ITR) as well as the requirements of the Canada Revenue Agency (CRA) with respect to defined benefit pension plans. It is possible for an IPP to be a combination plan offering both defined benefits and defined contribution pensions
174	Investment	Incremental capital-output ratio	99	The Incremental Capital-Output Ratio (ICOR) is the ratio of investment to growth which is equal to the reciprocal of the marginal product of capital. The higher the ICOR, the lower the productivity of capital or the marginal efficiency of capital. The ICOR can be thought of as a measure of the inefficiency with which capital is used. In most countries the ICOR is in the neighborhood of 3. It is a topic discussed in economic growth. It can be expressed in the following formula, where K is capital output ratio, Y is output (GDP), and I is net investment.
175	Investment	Impact investing	37	Impact investing refers to investments "made into companies, organizations, and funds with the intention to generate a measurable, beneficial social or environmental impact alongside a financial return". Impact investments provide capital to address social and/or environmental issues.
176	Investment	Hybrid market	138	A hybrid market allows a stockbroker to choose to have an order executed immediately in a fully automated electronic exchange or to have it routed to the trading floor, where it is completed manually via the more traditional live auction method, in the presence of a specialist broker. The fully electronic method has the advantage of speed, often completing orders in less than one second, but comparable manual transactions take an average of nine seconds. However, the live auction method differentiates itself with the human interaction and expert judgment of the specialists, which are currently seen as obsolete since most customers seem to prefer speed, and the New York Stock Exchange (NYSE) is working to redefine the role played by the specialists in the market. The NYSE is seen as the world's premier example of a hybrid market.
177	Investment	Hybrid Investment	48	Hybrid investments, also known as derivatives or just hybrids, are a form of investment that combines equity and debt features, allowing companies to protect themselves against financial risks in securities transactions. This form of investment is essential for traders and investment professionals to branch out their portfolio assets.
178	Investment	Homemade leverage	36	In finance, homemade leverage is the use of personal borrowing of investors to change the amount of financial leverage of the firm. Investors can use homemade leverage to change an unleveraged firm into a leveraged firm.
179	Investment	Holding period return	36	In finance, holding period return (HPR) is the return on an asset or portfolio over the whole period during which it was held. It is one of the simplest and most important measures of investment performance.
180	Investment	Guaranteed investment contract	99	A guaranteed investment contract (GIC) is a contract that guarantees repayment of principal and a fixed or floating interest rate for a predetermined period of time. Guaranteed investment contracts are typically issued by life insurance companies qualified for favorable tax status under the Internal Revenue Code. A GIC is used primarily as a vehicle that yields a higher return than a savings account or United States Treasury securities and GICs are often used as investments for stable value funds. GICs are sometimes referred to as funding agreements, although this term is often reserved for contracts sold to non-qualified institutions.
181	Investment	Growth investing	62	Growth investing is a style of investment strategy focused on capital appreciation. Those who follow this style, known as growth investors, invest in companies that exhibit signs of above-average growth, even if the share price appears expensive in terms of metrics such as price-to-earnings or price-to-book ratios. In typical usage, the term "growth investing" contrasts with the strategy known as value investing.
182	Investment	Greater fool theory	85	In finance and economics, the greater fool theory states that the price of an object is determined not by its intrinsic value, but rather by irrational beliefs and expectations of market participants. A price can be justified by a rational buyer under the belief that another party is willing to pay an even higher price. In other words, one may pay a price that seems "foolishly" high because one may rationally have the expectation that the item can be resold to a "greater fool" later.
183	Investment	Good 'til cancelled	32	In investment, a good ’til cancelled (GTC) order is an order to buy or sell a security at a specified price which remains in effect until executed or cancelled by the investor.
184	Investment	Goal-based investing	78	Goal Based Investing or Goal Driven Investing is an investment methodology where performance is measured by the success of investments in meeting an individual's personal and lifestyle goals. This differs from conventional investing methodologies, where financial performance is defined as a return against an investment benchmark. This approach results in focus of the investment approach shifting from achieving a higher returns approach to the investment, or exceeding the market returns approach to funding a personal financial goals approach.
185	Investment	Gender lens investing	46	Gender lens investing is the practice of investing for financial return while also considering the benefits to women, both through improving economic opportunities and social well being for girls and women. The term was coined around 2009 and became an increasingly popular practice in the mid-2010s.
186	Investment	G33 (developing countries)	33	The G33 is a coalition of developing countries, established prior to the 2003 Cancun ministerial conference, that have coordinated during the Doha Round of World Trade Organization negotiations, specifically in regard to agriculture.
187	Investment	G20 developing nations	62	The G20 developing nations is a bloc of developing nations established on 20 August 2003. Distinct and separate from the G20 major economies, the group emerged at the 5th Ministerial WTO conference, held in Cancún, Mexico, from 10 September to 14 September 2003. The group accounted for 60% of the world's population, 70% of its farmers and 26% of world’s agricultural exports.
188	Investment	Frontier markets	112	A frontier market is a type of developing country which is more developed than the least developing countries, but too small, risky, or illiquid to be generally considered an emerging market. The term is an economic term which was coined by International Finance Corporation’s Farida Khambata in 1992. The term is commonly used to describe the equity markets of the smaller and less accessible, but still "investable", countries of the developing world. The frontier, or pre-emerging equity markets are typically pursued by investors seeking high, long-run return potential as well as low correlations with other markets. Some frontier market countries were emerging markets in the past, but have regressed to frontier status.
189	Investment	Foreign portfolio investment	63	A foreign portfolio investment is a grouping of assets such as stocks, bonds, and cash equivalents. Portfolio investments are held directly by an investor or managed by financial professionals. In economics, foreign portfolio investment is the entry of funds into a country where foreigners deposit money in a country's bank or make purchases in the country’s stock and bond markets, sometimes for speculation.
190	Investment	Flipping	43	Flipping is a term used primarily in the United States to describe purchasing a revenue-generating asset and quickly reselling it for profit. Though flipping can apply to any asset, the term is most often applied to real estate and initial public offerings (IPOs).
191	Investment	Fixed-income relative-value investing	53	Fixed-Income Relative-Value Investing (FI-RV) is a hedge fund investment strategy made popular by the failed hedge fund Long-Term Capital Management. FI-RV Investors most commonly exploit interest-rate anomalies in the large, liquid markets of North America, Europe and the Pacific Rim. The financial instruments traded include government bonds, interest rate swaps and futures contracts.
192	Investment	FIRE movement	40	The FIRE movement is a lifestyle movement whose goal is financial independence and retiring early. The model became particularly popular among millennials in the 2010s, gaining traction through online communities via information shared in blogs, podcasts, and online discussion forums.
193	Investment	Financial sponsor	20	A financial sponsor is a private equity investment firm, particularly a private equity firm that engages in leveraged buyout transactions.
194	Investment	Financial planning (business)	60	Financial planning is the task of determining how a business will afford to achieve its strategic goals and objectives. Usually, a company creates a Financial Plan immediately after the vision and objectives have been set. The Financial Plan describes each of the activities, resources, equipment and materials that are needed to achieve these objectives, as well as the timeframes involved.
195	Investment	Fence (finance)	19	Fence is an investment strategy that uses options to limit the range of possible returns on a financial instrument.
196	Investment	Fed model	66	The "Fed model" is a theory of equity valuation that has found broad application in the investment community. The model compares the stock market’s earnings yield (E/P) to the yield on long-term government bonds. In its strongest form the Fed model states that bond and stock market are in equilibrium, and fairly valued, when the one-year forward-looking earnings yield equals the 10-year Treasury note yield :
197	Investment	Factor investing	58	Factor investing is an investment approach that involves targeting quantifiable firm characteristics or “factors” that can explain differences in stock returns. Over the last fifty years, academic research has identified hundreds of factors that impact stock returns. Security characteristics that may be included in a factor-based approach includes size, value, momentum, asset growth, profitability, leverage, term and carry.
198	Investment	Exempt market dealer	52	The Canadian Securities Administrators (“CSA’) have made the harmonization of the registration rules among the jurisdictions of Canada a key goal. Pursuant to this goal new national securities regulations have been drafted - NI 31-103 to provide uniform requirements and categories of registration for dealers in exempt market securities across the country.
199	Investment	Exchange fund	43	An exchange fund or swap fund is a mechanism specific to the U.S., first introduced in the late 1960s, that allows holders of a large amount of a single stock to diversify into a basket of other stocks without directly selling their stock.
200	Investment	Ex-ante	94	The term ex-ante is a phrase meaning "before the event". Ex-ante or notional demand refers to the desire for goods and services which is not backed by the ability to pay for those goods and services. This is also termed as ‘wants of people’. Ex-ante is used most commonly in the commercial world, where results of a particular action, or series of actions, are forecast in advance. The opposite of ex-ante is ex-post (actual). Buying a lottery ticket loses you money ex ante, but if you win, it was the right decision ex post.
201	Investment	European Commission Investment Plan for Europe	59	The European Commission’s Investment Plan for Europe known as the “Juncker Plan” or the “EU Infrastructure Investment Plan” is an ambitious infrastructure investment programme first announced by European Commission President Jean-Claude Juncker in November 2014: it aims at unlocking public and private investments in the “real economy” of at least € 315 billion over a three years fiscal period.
202	Investment	ESG Quant	83	ESG Quant is an investment strategy, developed by Arabesque Partners, which involves quantitative equity investing while utilizing ESG information, often referred to as "non-financial" information. ESG Quant strategies are implemented within systematic trading or quantitative trading approaches. As such there is no human judgment or discretionary buy-sell decision making; rather “in a pure quant model the final decision to buy or sell is made by the model” or through the “utilization of an expert system that replicates previously captured actions of real traders.”
203	Investment	Equity repositioning	57	Equity Repositioning is the financial strategy of taking an equity rich asset base and repositioning those assets into a diversity of investment vehicles. The idea is to borrow against the equity value of a property and reposition that capital. This strategy is aimed at earning a rate of return greater than the cost to borrow the funds.
204	Investment	Equator Principles	98	The Equator Principles is a risk management framework, adopted by financial institutions, for determining, assessing and managing environmental and social risk in project finance. It is primarily intended to provide a minimum standard for due diligence to support responsible risk decision-making. As at February 2019, 94 adopting financial institutions in 37 countries have officially adopted the Equator Principles, covering the majority of international Project Finance debt in emerging and developed markets. The Equator Principles, formally launched in Washington DC on 4 June 2003, were based on existing environmental and social policy frameworks established by the International Finance Corporation.
205	Investment	Enhanced indexing	29	In finance, enhanced indexing is any strategy employed to outperform traditional indexing. Enhanced indexing attempts to generate modest excess returns compared to index funds and other passive management techniques.
206	Investment	Engineering economics (civil engineering)	147	Engineering Economics in Civil Engineering, also known generally as engineering economics, or alternatively engineering economy, is a subset of economics, more specifically, microeconomics. It is defined as a "guide for the economic selection among technically feasible alternatives for the purpose of a rational allocation of scarce resources." Its goal is to guide entities, private or public, that are confronted with the fundamental problem of economics.This fundamental problem of economics consists of two fundamental questions that must be answered, namely what objectives should be investigated or explored and how should these be achieved? Economics as a social science answers those questions and is defined as the knowledge used for selecting among “…technically feasible alternatives for the purpose of a rational allocation of scarce resources.” Correspondingly, all problems involving "...profit maximizing or cost-minimizing are engineering problems with economic objectivesand are properly described by the label "engineering economy".
207	Investment	Employee stock purchase plan	93	In the United States, an employee stock purchase plan (ESPP) is a tax-efficient means by which employees of a corporation can purchase the corporation's stock, often at a discount. Employees contribute to the plan through payroll deductions, which build up between the offering date and the purchase date. At the purchase date, the company uses the accumulated funds to purchase shares in the company on behalf of the participating employees. The amount of the discount depends on the specific plan but can be as much as 15% lower than the market price.
208	Investment	Emerging market	123	An emerging market is a market that has some characteristics of a developed market, but does not fully meet its standards. This includes markets that may become developed markets in the future or were in the past. The term "frontier market" is used for developing countries with smaller, riskier, or more illiquid capital markets than "emerging". The economies of China and India are considered to be the largest emerging markets. According to The Economist, many people find the term outdated, but no new term has gained traction. Emerging market hedge fund capital reached a record new level in the first quarter of 2011 of $121 billion. The four largest emerging and developing economies by either nominal or PPP-adjusted GDP are the BRIC countries.
209	Investment	Eco-investing	42	Eco-investing or green investing, is a form of socially responsible investing where investments are made in companies that support or provide environmentally friendly products and practices. These companies encourage new technologies that support the transition from carbon dependence to more sustainable alternatives.
210	Investment	Earnings growth	43	Earnings growth is the annual compound annual growth rate (CAGR) of earnings from investments. For more general discussion see: Sustainable growth rate #From a financial perspective; Stock valuation #Growth rate; Valuation using discounted cash flows #Determine the continuing value; Growth stock; PEG ratio.
211	Investment	Double bottom line	106	Double bottom line seeks to extend the conventional bottom line, that measures fiscal performance—financial profit or loss—by adding a second bottom line to measure their performance in terms of positive social impact. There is controversy about how to measure the double bottom line, especially since the use of the term "bottom line" implies some form of quantification. A 2004 report by the Center for Responsible Business noted that while there are "generally accepted principles of accounting" for financial returns, "A comparable standard for social impact accounting does not yet exist." Social return on investment has been suggested as a way to quantify the second bottom line.
212	Investment	Domain Developers Fund	67	Domain Developers Fund (DDF) is the first public open-ended alternative investment fund exclusively invested in Internet domain names. DDF maintains an inventory of websites and domain names, including a wide variety of gTLD and ccTLD domains, from which it extracts advertising revenue through a combination of pay per click advertising, affiliate marketing and domain parking. Internet domains are perceived as an alternate asset class for investment diversification.
213	Investment	Dollar cost averaging	51	Dollar cost averaging (DCA) is an investment strategy that aims to reduce the impact of volatility on large purchases of financial assets such as equities. Dollar cost averaging is also called the constant dollar plan, pound-cost averaging, and, irrespective of currency, unit cost averaging, incremental trading, or the cost average effect.
214	Investment	Dogs of the Dow	86	The Dogs of the Dow is an investment strategy popularized by Michael B. O'Higgins in 1991 and the official Dogs of the Dow website, which proposes that an investor annually select for investment the ten Dow Jones Industrial Average (DJIA) stocks whose dividend is the highest fraction of their price. Under other analysis these stocks would be considered "dogs", or undesirable, but the Dogs of the Dow strategy proposes these same stocks have the potential for substantial increases in stock price plus relatively high dividend payouts.
215	Investment	Do-it-yourself investing	42	Do-it-yourself (DIY) investing, self-directed investing or self-managed investing is an investment approach where the investor chooses to build and manage his or her own investment portfolio instead of hiring an agent, such as a stockbroker, investment adviser, private banker, or financial planner.
216	Investment	Dividend policy	92	Dividend policy is concerned with financial policies regarding paying cash dividend in the present or paying an increased dividend at a later stage. Whether to issue dividends, and what amount, is determined mainly on the basis of the company's unappropriated profit and influenced by the company's long-term earning power. When cash surplus exists and is not needed by the firm, then management is expected to pay out some or all of those surplus earnings in the form of cash dividends or to repurchase the company's stock through a share buyback program.
217	Investment	Divestment	38	In finance and economics, divestment or divestiture is the reduction of some kind of asset for financial, ethical, or political objectives or sale of an existing business by a firm. A divestment is the opposite of an investment.
218	Investment	Displaced sales	63	In real estate investing, displaced sales are the opposite of leakage. Essentially, displaced sales are purchases made far out of a consumer's local economic area, even if that local economic area has comparable goods. Displaced sales are sales which come into a firm from outside. Leaked sales are sales which are not made inside a firm, even if that firm has comparable goods.
219	Investment	Disinvestment	85	Disinvestment refers to the use of a concerted economic boycott to pressure a government, industry, or company towards a change in policy, or in the case of governments, even regime change. The term was first used in the 1980s, most commonly in the United States, to refer to the use of a concerted economic boycott designed to pressure the government of South Africa into abolishing its policy of apartheid. The term has also been applied to actions targeting Iran, Sudan, Northern Ireland, Myanmar, and Israel.
220	Investment	Directed trust	100	A directed trust is an investment trust in which the trustee is directed by a number of other trust participants in implementing the trust's execution. That trustee is referred to as a Directed Trustee. Examples of other trust participants include a distribution committee, trust protector, or investment advisor. A directed trustee's role often includes: following distribution and investment instructions, holding legal title to the trust assets, providing fiduciary and tax accounting, coordinating trust participants and offering dispute resolution among those participants. Typically, these duties and the other participants in the trust are defined and governed by the trust document itself.
221	Investment	Developed market	50	In investing, a developed market is a country that is most developed in terms of its economy and capital markets. The country must be high income, but this also includes openness to foreign ownership, ease of capital movement, and efficiency of market institutions. This term is contrasted with developing market.
222	Investment	Defined contribution plan	109	A defined contribution (DC) plan is a type of retirement plan in which the employer, employee or both make contributions on a regular basis. Individual accounts are set up for participants and benefits are based on the amounts credited to these accounts plus any investment earnings on the money in the account. In defined contribution plans, future benefits fluctuate on the basis of investment earnings. The most common type of defined contribution plan is a savings and thrift plan. Under this type of plan, the employee contributes a predetermined portion of his or her earnings to an individual account, all or part of which is matched by the employer.
223	Investment	Cost of delay	51	Cost of Delay is "a way of communicating the impact of time on the outcomes we hope to achieve". More formally, it is the partial derivative of the total expected value with respect to time. Cost of Delay combines an understanding of value with how that value leaks away over time.
224	Investment	Core & Satellite	45	Core & Satellite Portfolio Management is an investment strategy that incorporates traditional fixed-income and equity-based securities known as the "core" portion of the portfolio, with a percentage of selected individual securities in the fixed-income and equity-based side of the portfolio known as the "satellite" portion.
225	Investment	Convention of conservatism	80	In accounting, the convention of conservatism, also known as the doctrine of prudence, is a policy of anticipating possible future losses but not future gains. This policy tends to understate rather than overstate net assets and net income, and therefore lead companies to "play safe". When given a choice between several outcomes where the probabilities of occurrence are equally likely, you should recognize that transaction resulting in the lower amount of profit, or at least the deferral of a profit..
226	Investment	Contrarian investing	22	Contrarian Investing is an investment strategy that is characterized by purchasing and selling in contrast to the prevailing sentiment of the time.
227	Investment	Constant proportion portfolio insurance	74	Constant proportion portfolio investment (CPPI) is a trading strategy that allows an investor to maintain an exposure to the upside potential of a risky asset while providing a capital guarantee against downside risk. The outcome of the CPPI strategy is somewhat similar to that of buying a call option, but does not use option contracts. Thus CPPI is sometimes referred to as a convex strategy, as opposed to a "concave strategy" like constant mix.
